Study_word,test_word,Reference,old_new,trials.thisRepN,trials.thisTrialN,trials.thisN,trials.thisIndex,trials_2.thisRepN,trials_2.thisTrialN,trials_2.thisN,trials_2.thisIndex,thisRow.t,notes,Study_Phase.started,StudyText.started,Studyslider.started,Study_Phase.stopped,Studyslider.response,Studyslider.rt,Test_Phase.started,TestText.started,test_textbox.started,submit_text.started,testmouse.started,Test_Phase.stopped,test_textbox.text,testmouse.x,testmouse.y,testmouse.leftButton,testmouse.midButton,testmouse.rightButton,testmouse.time,testmouse.clicked_name,TestText.stopped,participant,session,date,expName,psychopyVersion,frameRate,expStart,
laptop,,,,0,0,0,5,,,,,0.04174130014143884,,0.017168400110676885,0.04174130014143884,0.04174130014143884,2.85398230003193,1.4814814814814814,2.8137478998396546,,,,,,,,,,,,,,,,097998,001,2024-11-07_14h50.50.505,Word Priming,2024.1.5,None,2024-11-07 14h51.00.327126 +0530,
Cruise,,,,0,1,1,11,,,,,2.8683049001265317,,2.854261700063944,2.8683049001265317,2.8683049001265317,3.570299900136888,2.1666666666666665,0.6942684999667108,,,,,,,,,,,,,,,,097998,001,2024-11-07_14h50.50.505,Word Priming,2024.1.5,None,2024-11-07 14h51.00.327126 +0530,
T-shirt,,,,0,2,2,7,,,,,3.584785200189799,,3.5704934999812394,3.584785200189799,3.584785200189799,4.5536858001723886,3.6185185185185187,0.9613971000071615,,,,,,,,,,,,,,,,097998,001,2024-11-07_14h50.50.505,Word Priming,2024.1.5,None,2024-11-07 14h51.00.327126 +0530,
phone,,,,0,3,3,2,,,,,4.568185500102118,,4.553869400173426,4.568185500102118,4.568185500102118,5.203723100014031,4.214814814814815,0.6294060000218451,,,,,,,,,,,,,,,,097998,001,2024-11-07_14h50.50.505,Word Priming,2024.1.5,None,2024-11-07 14h51.00.327126 +0530,
Poster,,,,0,4,4,14,,,,,5.218030499992892,,5.203956600045785,5.218030499992892,5.218030499992892,5.986629900056869,3.8444444444444446,0.7612475000787526,,,,,,,,,,,,,,,,097998,001,2024-11-07_14h50.50.505,Word Priming,2024.1.5,None,2024-11-07 14h51.00.327126 +0530,
Chart,,,,0,5,5,6,,,,,6.001181100029498,,5.986802899977192,6.001181100029498,6.001181100029498,6.669968500034884,2.9444444444444446,0.6631345001515001,,,,,,,,,,,,,,,,097998,001,2024-11-07_14h50.50.505,Word Priming,2024.1.5,None,2024-11-07 14h51.00.327126 +0530,
Case,,,,0,6,6,10,,,,,6.684484899975359,,6.6701507000252604,6.684484899975359,6.684484899975359,7.40275160013698,2.2666666666666666,0.7129182999487966,,,,,,,,,,,,,,,,097998,001,2024-11-07_14h50.50.505,Word Priming,2024.1.5,None,2024-11-07 14h51.00.327126 +0530,
marble,,,,0,7,7,3,,,,,7.417345100082457,,7.402945599984378,7.417345100082457,7.417345100082457,8.136562200030312,1.2074074074074075,0.7133869000244886,,,,,,,,,,,,,,,,097998,001,2024-11-07_14h50.50.505,Word Priming,2024.1.5,None,2024-11-07 14h51.00.327126 +0530,
book,,,,0,8,8,0,,,,,8.150770100066438,,8.136775400023907,8.150770100066438,8.150770100066438,9.786266900133342,1.048148148148148,1.6291811000555754,,,,,,,,,,,,,,,,097998,001,2024-11-07_14h50.50.505,Word Priming,2024.1.5,None,2024-11-07 14h51.00.327126 +0530,
Pastry,,,,0,9,9,9,,,,,9.800447400193661,,9.786467500030994,9.800447400193661,9.800447400193661,11.035895900102332,1.7333333333333334,1.2275533999782056,,,,,,,,,,,,,,,,097998,001,2024-11-07_14h50.50.505,Word Priming,2024.1.5,None,2024-11-07 14h51.00.327126 +0530,
board,,,,0,10,10,4,,,,,11.050108800176531,,11.036076800199226,11.050108800176531,11.050108800176531,13.352645799983293,2.837037037037037,2.294869399862364,,,,,,,,,,,,,,,,097998,001,2024-11-07_14h50.50.505,Word Priming,2024.1.5,None,2024-11-07 14h51.00.327126 +0530,
Police,,,,0,11,11,12,,,,,13.366269499994814,,13.352912000147626,13.366269499994814,13.366269499994814,14.001373900100589,3.4074074074074074,0.6296882999595255,,,,,,,,,,,,,,,,097998,001,2024-11-07_14h50.50.505,Word Priming,2024.1.5,None,2024-11-07 14h51.00.327126 +0530,
cushion,,,,0,12,12,1,,,,,14.016257600160316,,14.001555999973789,14.016257600160316,14.016257600160316,14.818450900027528,4.107407407407408,0.7964007998816669,,,,,,,,,,,,,,,,097998,001,2024-11-07_14h50.50.505,Word Priming,2024.1.5,None,2024-11-07 14h51.00.327126 +0530,
mouse,,,,0,13,13,8,,,,,14.83237800002098,,14.818632200127468,14.83237800002098,14.83237800002098,15.284387700026855,4.107407407407408,0.4457410001195967,,,,,,,,,,,,,,,,097998,001,2024-11-07_14h50.50.505,Word Priming,2024.1.5,None,2024-11-07 14h51.00.327126 +0530,
Keys,,,,0,14,14,13,,,,,15.298133600037545,,15.28459160006605,15.298133600037545,15.298133600037545,15.617729700170457,4.107407407407408,0.3110482001211494,,,,,,,,,,,,,,,,097998,001,2024-11-07_14h50.50.505,Word Priming,2024.1.5,None,2024-11-07 14h51.00.327126 +0530,
,l_pt_p,Laptop,old,,,,,0,0,0,0,15.647845800034702,,,,,,,,15.639582100091502,15.647845800034702,15.647845800034702,15.647845800034702,0.024261699989438057,22.048301300033927,laptop,"[0.27685185185185185, 0.27685185185185185, 0.27685185185185185, 0.27685185185185185, -0.027777777777777776]","[-0.29907407407407405, -0.29907407407407405, -0.29907407407407405, -0.29907407407407405, -0.2962962962962963]","[1, 1, 1, 1, 1]","[0, 0, 0, 0, 0]","[0, 0, 0, 0, 0]","[0.19106899993494153, 0.6072612998541445, 1.0237300998996943, 1.9568334999494255, 6.4058532998897135]",['submit_text'],,097998,001,2024-11-07_14h50.50.505,Word Priming,2024.1.5,None,2024-11-07 14h51.00.327126 +0530,
,_ho_e,Phone,old,,,,,0,1,1,12,22.064420000184327,,,,,,,,22.048943900037557,22.064420000184327,22.064420000184327,22.064420000184327,0.0017452000174671412,30.380897300085053,phone,[-0.03796296296296296],[-0.29259259259259257],[1],[0],[0],[8.329481499968097],['submit_text'],,097998,001,2024-11-07_14h50.50.505,Word Priming,2024.1.5,None,2024-11-07 14h51.00.327126 +0530,
,P_st_r,Poster,old,,,,,0,2,2,9,30.396032700082287,,,,,,,,30.381671800045297,30.396032700082287,30.396032700082287,30.396032700082287,0.0027042999863624573,34.69580280012451,poster,[-0.06018518518518518],[-0.2898148148148148],[1],[0],[0],[4.3111634000670165],['submit_text'],,097998,001,2024-11-07_14h50.50.505,Word Priming,2024.1.5,None,2024-11-07 14h51.00.327126 +0530,
,_oo_,Book,old,,,,,0,3,3,13,34.71169809997082,,,,,,,,34.69616589997895,34.71169809997082,34.71169809997082,34.71169809997082,0.0014724000357091427,37.66246230015531,book,[-0.06759259259259259],[-0.29907407407407405],[1],[0],[0],[2.964330199873075],['submit_text'],,097998,001,2024-11-07_14h50.50.505,Word Priming,2024.1.5,None,2024-11-07 14h51.00.327126 +0530,
,T_hi_t,Tshirt,old,,,,,0,4,4,2,37.67787370015867,,,,,,,,37.66304900008254,37.67787370015867,37.67787370015867,37.67787370015867,0.0022285999730229378,42.493305900134146,tshirt,[-0.05092592592592592],[-0.3055555555555556],[1],[0],[0],[4.827647800091654],['submit_text'],,097998,001,2024-11-07_14h50.50.505,Word Priming,2024.1.5,None,2024-11-07 14h51.00.327126 +0530,
,_o_rd,Board,old,,,,,0,5,5,10,42.509129900019616,,,,,,,,42.49375080014579,42.509129900019616,42.509129900019616,42.509129900019616,0.002051600022241473,62.39026240003295,nord,[-0.028703703703703703],[-0.29814814814814816],[1],[0],[0],[19.894063400104642],['submit_text'],52.524543800158426,097998,001,2024-11-07_14h50.50.505,Word Priming,2024.1.5,None,2024-11-07 14h51.00.327126 +0530,
,bo_t_e,Bottle,new,,,,,0,6,6,18,62.405696199974045,,,,,,,,62.39089779998176,62.405696199974045,62.405696199974045,62.405696199974045,0.0025409001391381025,68.83881660015322,bootle,[-0.030555555555555555],[-0.3],[1],[0],[0],[6.444966699928045],['submit_text'],,097998,001,2024-11-07_14h50.50.505,Word Priming,2024.1.5,None,2024-11-07 14h51.00.327126 +0530,
,P_li_e,Police,old,,,,,0,7,7,7,68.8544859001413,,,,,,,,68.83927540015429,68.8544859001413,68.8544859001413,68.8544859001413,0.0019117000047117472,73.33852630015463,police,[-0.012962962962962963],[-0.2935185185185185],[1],[0],[0],[4.496874300064519],['submit_text'],,097998,001,2024-11-07_14h50.50.505,Word Priming,2024.1.5,None,2024-11-07 14h51.00.327126 +0530,
,c_s_,Case,old,,,,,0,8,8,5,73.35388090019114,,,,,,,,73.33892620005645,73.35388090019114,73.35388090019114,73.35388090019114,0.0020500998944044113,76.57079960010014,case,[0.009259259259259259],[-0.29259259259259257],[1],[0],[0],[3.229188200086355],['submit_text'],,097998,001,2024-11-07_14h50.50.505,Word Priming,2024.1.5,None,2024-11-07 14h51.00.327126 +0530,
,K_y_,Keys,old,,,,,0,9,9,8,76.586323000025,,,,,,,,76.57128130015917,76.586323000025,76.586323000025,76.586323000025,0.0016870000399649143,79.77016240009107,keys,[0.021296296296296296],[-0.29814814814814816],[1],[0],[0],[3.196721199899912],['submit_text'],,097998,001,2024-11-07_14h50.50.505,Word Priming,2024.1.5,None,2024-11-07 14h51.00.327126 +0530,
,c_m_ra,Camera,new,,,,,0,10,10,19,79.78586430009454,,,,,,,,79.77050470001996,79.78586430009454,79.78586430009454,79.78586430009454,0.0015878002159297466,82.55264970008284,camera,[0.022222222222222223],[-0.3111111111111111],[1],[0],[0],[2.7801093000452965],['submit_text'],,097998,001,2024-11-07_14h50.50.505,Word Priming,2024.1.5,None,2024-11-07 14h51.00.327126 +0530,
,p_nc_l,Pencil,new,,,,,0,11,11,16,82.56877920008264,,,,,,,,82.55302220000885,82.56877920008264,82.56877920008264,82.56877920008264,0.0018437998369336128,88.38483620015904,pencil,[0.006481481481481481],[-0.30277777777777776],[1],[0],[0],[5.8295485998969525],['submit_text'],,097998,001,2024-11-07_14h50.50.505,Word Priming,2024.1.5,None,2024-11-07 14h51.00.327126 +0530,
,c_s_io_,Cushion,old,,,,,0,12,12,14,88.40027069998905,,,,,,,,88.38531600008719,88.40027069998905,88.40027069998905,88.40027069998905,0.0019652999471873045,98.11558240000159,cushion,[0.002777777777777778],[-0.2962962962962963],[1],[0],[0],[9.728059299988672],['submit_text'],,097998,001,2024-11-07_14h50.50.505,Word Priming,2024.1.5,None,2024-11-07 14h51.00.327126 +0530,
,P_s_r_,Pastry,old,,,,,0,13,13,4,98.13136890018359,,,,,,,,98.1159581001848,98.13136890018359,98.13136890018359,98.13136890018359,0.0022404000628739595,101.19846040010452,poster,[-0.009259259259259259],[-0.2972222222222222],[1],[0],[0],[3.0798943999689072],['submit_text'],,097998,001,2024-11-07_14h50.50.505,Word Priming,2024.1.5,None,2024-11-07 14h51.00.327126 +0530,
,_a_bl_,Marble,old,,,,,0,14,14,11,101.21417330019176,,,,,,,,101.19936540001072,101.21417330019176,101.21417330019176,101.21417330019176,0.0019278998952358961,105.31505229999311,table,[-0.011111111111111112],[-0.2972222222222222],[1],[0],[0],[4.113361899973825],['submit_text'],,097998,001,2024-11-07_14h50.50.505,Word Priming,2024.1.5,None,2024-11-07 14h51.00.327126 +0530,
,_ru_is_,Cruise,old,,,,,0,15,15,6,105.33044120017439,,,,,,,,105.31561830011196,105.33044120017439,105.33044120017439,105.33044120017439,0.0021565998904407024,114.04572390019894,cruise,[-0.016666666666666666],[-0.2972222222222222],[1],[0],[0],[8.727683800039813],['submit_text'],,097998,001,2024-11-07_14h50.50.505,Word Priming,2024.1.5,None,2024-11-07 14h51.00.327126 +0530,
,_ou_se,mouse,old,,,,,0,16,16,3,114.06143220001832,,,,,,,,114.04610910010524,114.06143220001832,114.06143220001832,114.06143220001832,0.0016168998554348946,117.4291755000595,mouse,[-0.016666666666666666],[-0.2972222222222222],[1],[0],[0],[3.3808251000009477],['submit_text'],,097998,001,2024-11-07_14h50.50.505,Word Priming,2024.1.5,None,2024-11-07 14h51.00.327126 +0530,
,ta_l_,Table,new,,,,,0,17,17,15,117.444356800057,,,,,,,,117.42960360017605,117.444356800057,117.444356800057,117.444356800057,0.0022440000902861357,130.35921630007215,table,[-0.016666666666666666],[-0.2972222222222222],[1],[0],[0],[12.926915899850428],['submit_text'],127.45884600002319,097998,001,2024-11-07_14h50.50.505,Word Priming,2024.1.5,None,2024-11-07 14h51.00.327126 +0530,
,v_s_,Vase,new,,,,,0,18,18,17,130.37490960001014,,,,,,,,130.35964570008218,130.37490960001014,130.37490960001014,130.37490960001014,0.0043339000549167395,133.4587130001746,vase,[-0.016666666666666666],[-0.2972222222222222],[1],[0],[0],[3.0941816999111325],['submit_text'],,097998,001,2024-11-07_14h50.50.505,Word Priming,2024.1.5,None,2024-11-07 14h51.00.327126 +0530,
,_ha_t,Chart,old,,,,,0,19,19,1,133.47409150004387,,,,,,,,133.45905310008675,133.47409150004387,133.47409150004387,133.47409150004387,0.0017492000479251146,140.80688260006718,chart,[-0.016666666666666666],[-0.2972222222222222],[1],[0],[0],[7.345616900129244],['submit_text'],,097998,001,2024-11-07_14h50.50.505,Word Priming,2024.1.5,None,2024-11-07 14h51.00.327126 +0530,
