Study_word,test_word,Reference,old_new,trials.thisRepN,trials.thisTrialN,trials.thisN,trials.thisIndex,trials_2.thisRepN,trials_2.thisTrialN,trials_2.thisN,trials_2.thisIndex,thisRow.t,notes,Study_Phase.started,StudyText.started,Studyslider.started,Study_Phase.stopped,Studyslider.response,Studyslider.rt,Test_Phase.started,TestText.started,test_textbox.started,submit_text.started,testmouse.started,Test_Phase.stopped,test_textbox.text,testmouse.x,testmouse.y,testmouse.leftButton,testmouse.midButton,testmouse.rightButton,testmouse.time,testmouse.clicked_name,TestText.stopped,participant,session,date,expName,psychopyVersion,frameRate,expStart,
book,,,,0,0,0,0,,,,,0.03991920012049377,,0.013041200116276741,0.03991920012049377,0.03991920012049377,1.5270728999748826,1.5518518518518518,1.4919280000030994,,,,,,,,,,,,,,,,569892,001,2024-11-07_14h45.14.704,Word Priming,2024.1.5,None,2024-11-07 14h45.20.576522 +0530,
Police,,,,0,1,1,12,,,,,1.5438337998930365,,1.5298031000420451,1.5438337998930365,1.5438337998930365,2.2938230999279767,2.6444444444444444,0.7423696999903768,,,,,,,,,,,,,,,,569892,001,2024-11-07_14h45.14.704,Word Priming,2024.1.5,None,2024-11-07 14h45.20.576522 +0530,
marble,,,,0,2,2,3,,,,,2.3090540999546647,,2.2940523999277502,2.3090540999546647,2.3090540999546647,2.9610816999338567,3.162962962962963,0.6447197999805212,,,,,,,,,,,,,,,,569892,001,2024-11-07_14h45.14.704,Word Priming,2024.1.5,None,2024-11-07 14h45.20.576522 +0530,
Keys,,,,0,3,3,13,,,,,2.9782163000199944,,2.961323200026527,2.9782163000199944,2.9782163000199944,3.877611600095406,4.5814814814814815,0.8934649999719113,,,,,,,,,,,,,,,,569892,001,2024-11-07_14h45.14.704,Word Priming,2024.1.5,None,2024-11-07 14h45.20.576522 +0530,
Cruise,,,,0,4,4,11,,,,,3.8956055000890046,,3.877901599975303,3.8956055000890046,3.8956055000890046,4.594518099911511,3.9407407407407407,0.6939665998797864,,,,,,,,,,,,,,,,569892,001,2024-11-07_14h45.14.704,Word Priming,2024.1.5,None,2024-11-07 14h45.20.576522 +0530,
T-shirt,,,,0,5,5,7,,,,,4.615234999917448,,4.5948441999498755,4.615234999917448,4.615234999917448,5.276605699909851,2.4444444444444446,0.657211999874562,,,,,,,,,,,,,,,,569892,001,2024-11-07_14h45.14.704,Word Priming,2024.1.5,None,2024-11-07 14h45.20.576522 +0530,
board,,,,0,6,6,4,,,,,5.292560100089759,,5.276847700122744,5.292560100089759,5.292560100089759,6.0428615000564605,1.7444444444444445,0.7435186000075191,,,,,,,,,,,,,,,,569892,001,2024-11-07_14h45.14.704,Word Priming,2024.1.5,None,2024-11-07 14h45.20.576522 +0530,
Case,,,,0,7,7,10,,,,,6.057039699982852,,6.043063200078905,6.057039699982852,6.057039699982852,6.775890599936247,2.3444444444444446,0.713178199948743,,,,,,,,,,,,,,,,569892,001,2024-11-07_14h45.14.704,Word Priming,2024.1.5,None,2024-11-07 14h45.20.576522 +0530,
phone,,,,0,8,8,2,,,,,6.790237500099465,,6.776081399992108,6.790237500099465,6.790237500099465,7.409156299894676,3.1925925925925926,0.6120692000258714,,,,,,,,,,,,,,,,569892,001,2024-11-07_14h45.14.704,Word Priming,2024.1.5,None,2024-11-07 14h45.20.576522 +0530,
mouse,,,,0,9,9,8,,,,,7.4235427000094205,,7.40934869996272,7.4235427000094205,7.4235427000094205,8.159025900065899,4.014814814814815,0.7300748000852764,,,,,,,,,,,,,,,,569892,001,2024-11-07_14h45.14.704,Word Priming,2024.1.5,None,2024-11-07 14h45.20.576522 +0530,
Pastry,,,,0,10,10,9,,,,,8.173254299908876,,8.159265799913555,8.173254299908876,8.173254299908876,8.825507499976084,3.677777777777778,0.6471140999346972,,,,,,,,,,,,,,,,569892,001,2024-11-07_14h45.14.704,Word Priming,2024.1.5,None,2024-11-07 14h45.20.576522 +0530,
cushion,,,,0,11,11,1,,,,,8.839815800078213,,8.82572149997577,8.839815800078213,8.839815800078213,9.492118600057438,2.6555555555555554,0.6461213000584394,,,,,,,,,,,,,,,,569892,001,2024-11-07_14h45.14.704,Word Priming,2024.1.5,None,2024-11-07 14h45.20.576522 +0530,
Chart,,,,0,12,12,6,,,,,9.50626159994863,,9.492343100020662,9.50626159994863,9.50626159994863,10.158519899938256,1.5629629629629629,0.6465431000106037,,,,,,,,,,,,,,,,569892,001,2024-11-07_14h45.14.704,Word Priming,2024.1.5,None,2024-11-07 14h45.20.576522 +0530,
laptop,,,,0,13,13,5,,,,,10.173118100035936,,10.158713799901307,10.173118100035936,10.173118100035936,10.809583300026134,2.2,0.6302374000661075,,,,,,,,,,,,,,,,569892,001,2024-11-07_14h45.14.704,Word Priming,2024.1.5,None,2024-11-07 14h45.20.576522 +0530,
Poster,,,,0,14,14,14,,,,,10.823509200010449,,10.80986119993031,10.823509200010449,10.823509200010449,11.441682500066236,2.888888888888889,0.6108834999613464,,,,,,,,,,,,,,,,569892,001,2024-11-07_14h45.14.704,Word Priming,2024.1.5,None,2024-11-07 14h45.20.576522 +0530,
,v_s_,Vase,new,,,,,0,0,0,17,11.458720900118351,,,,,,,,11.447680999990553,11.458720900118351,11.458720900118351,11.458720900118351,0.009745800169184804,14.673003300093114,vase,[0.03888888888888889],[-0.27870370370370373],[1],[0],[0],[3.2209210998844355],['submit_text'],,569892,001,2024-11-07_14h45.14.704,Word Priming,2024.1.5,None,2024-11-07 14h45.20.576522 +0530,
,_a_bl_,Marble,old,,,,,0,1,1,11,14.68867089995183,,,,,,,,14.673603700008243,14.68867089995183,14.68867089995183,14.68867089995183,0.0017695999704301357,19.154943600064144,marble,[-0.001851851851851852],[-0.3101851851851852],[1],[0],[0],[4.479261199943721],['submit_text'],,569892,001,2024-11-07_14h45.14.704,Word Priming,2024.1.5,None,2024-11-07 14h45.20.576522 +0530,
,c_m_ra,Camera,new,,,,,0,2,2,19,19.170982799958438,,,,,,,,19.155351900029927,19.170982799958438,19.170982799958438,19.170982799958438,0.0018537999130785465,22.28808799991384,camera,[-0.000925925925925926],[-0.2916666666666667],[1],[0],[0],[3.130481099942699],['submit_text'],,569892,001,2024-11-07_14h45.14.704,Word Priming,2024.1.5,None,2024-11-07 14h45.20.576522 +0530,
,K_y_,Keys,old,,,,,0,3,3,8,22.303968399995938,,,,,,,,22.288549300050363,22.303968399995938,22.303968399995938,22.303968399995938,0.0020747000817209482,26.620322899892926,keys,[0.02962962962962963],[-0.30462962962962964],[1],[0],[0],[4.32938569993712],['submit_text'],,569892,001,2024-11-07_14h45.14.704,Word Priming,2024.1.5,None,2024-11-07 14h45.20.576522 +0530,
,c_s_io_,Cushion,old,,,,,0,4,4,14,26.63633510004729,,,,,,,,26.62070049997419,26.63633510004729,26.63633510004729,26.63633510004729,0.002212400082498789,31.220431900117546,cushion,[0.022222222222222223],[-0.2916666666666667],[1],[0],[0],[4.596739399945363],['submit_text'],,569892,001,2024-11-07_14h45.14.704,Word Priming,2024.1.5,None,2024-11-07 14h45.20.576522 +0530,
,_ho_e,Phone,old,,,,,0,5,5,12,31.235276200110093,,,,,,,,31.221231000032276,31.235276200110093,31.235276200110093,31.235276200110093,0.0032707001082599163,45.29978940007277,phone,[-0.000925925925925926],[-0.29074074074074074],[1],[0],[0],[14.07496549980715],['submit_text'],41.2497286000289,569892,001,2024-11-07_14h45.14.704,Word Priming,2024.1.5,None,2024-11-07 14h45.20.576522 +0530,
,P_s_r_,Pastry,old,,,,,0,6,6,4,45.31556229991838,,,,,,,,45.3001373000443,45.31556229991838,45.31556229991838,45.31556229991838,0.0018985001370310783,51.84830110007897,pastry,[-0.007407407407407408],[-0.30648148148148147],[1],[0],[0],[6.545783300185576],['submit_text'],,569892,001,2024-11-07_14h45.14.704,Word Priming,2024.1.5,None,2024-11-07 14h45.20.576522 +0530,
,p_nc_l,Pencil,new,,,,,0,7,7,16,51.86424080003053,,,,,,,,51.84869750007056,51.86424080003053,51.86424080003053,51.86424080003053,0.002381799975410104,57.54771640012041,pencil,[-0.012037037037037037],[-0.30648148148148147],[1],[0],[0],[5.695987300015986],['submit_text'],,569892,001,2024-11-07_14h45.14.704,Word Priming,2024.1.5,None,2024-11-07 14h45.20.576522 +0530,
,_ou_se,mouse,old,,,,,0,8,8,3,57.562920399941504,,,,,,,,57.54823080007918,57.562920399941504,57.562920399941504,57.562920399941504,0.002520899986848235,62.37970679998398,mouse,[-0.013888888888888888],[-0.30648148148148147],[1],[0],[0],[4.828566599870101],['submit_text'],,569892,001,2024-11-07_14h45.14.704,Word Priming,2024.1.5,None,2024-11-07 14h45.20.576522 +0530,
,_oo_,Book,old,,,,,0,9,9,13,62.39521119999699,,,,,,,,62.380063799908385,62.39521119999699,62.39521119999699,62.39521119999699,0.0023286999203264713,67.19554440001957,book,[0.009259259259259259],[-0.2861111111111111],[1],[0],[0],[4.812522200169042],['submit_text'],,569892,001,2024-11-07_14h45.14.704,Word Priming,2024.1.5,None,2024-11-07 14h45.20.576522 +0530,
,P_li_e,Police,old,,,,,0,10,10,7,67.21092139999382,,,,,,,,67.19594509992748,67.21092139999382,67.21092139999382,67.21092139999382,0.0019088999833911657,71.22790160006844,police,[-0.019444444444444445],[-0.2898148148148148],[1],[0],[0],[4.029608100187033],['submit_text'],,569892,001,2024-11-07_14h45.14.704,Word Priming,2024.1.5,None,2024-11-07 14h45.20.576522 +0530,
,_ru_is_,Cruise,old,,,,,0,11,11,6,71.24317650008015,,,,,,,,71.22842549998313,71.24317650008015,71.24317650008015,71.24317650008015,0.002083699917420745,87.24148899991997,cruise,[-0.026851851851851852],[-0.29259259259259257],[1],[0],[0],[16.010467399843037],['submit_text'],81.25793719990179,569892,001,2024-11-07_14h45.14.704,Word Priming,2024.1.5,None,2024-11-07 14h45.20.576522 +0530,
,T_hi_t,Tshirt,old,,,,,0,12,12,2,87.25659599993378,,,,,,,,87.24220210011117,87.25659599993378,87.25659599993378,87.25659599993378,0.0033500001300126314,91.00742379995063,tshirt,[-0.04351851851851852],[-0.29907407407407405],[1],[0],[0],[3.761255400022492],['submit_text'],,569892,001,2024-11-07_14h45.14.704,Word Priming,2024.1.5,None,2024-11-07 14h45.20.576522 +0530,
,P_st_r,Poster,old,,,,,0,13,13,9,91.0224806999322,,,,,,,,91.00809250003658,91.0224806999322,91.0224806999322,91.0224806999322,0.003132699988782406,95.15613849996589,poster,[-0.040740740740740744],[-0.29074074074074074],[1],[0],[0],[4.144408099818975],['submit_text'],,569892,001,2024-11-07_14h45.14.704,Word Priming,2024.1.5,None,2024-11-07 14h45.20.576522 +0530,
,c_s_,Case,old,,,,,0,14,14,5,95.17185020004399,,,,,,,,95.15652079996653,95.17185020004399,95.17185020004399,95.17185020004399,0.0017919999081641436,99.10487670009024,case,[-0.04259259259259259],[-0.2953703703703704],[1],[0],[0],[3.9461560000199825],['submit_text'],,569892,001,2024-11-07_14h45.14.704,Word Priming,2024.1.5,None,2024-11-07 14h45.20.576522 +0530,
,_ha_t,Chart,old,,,,,0,15,15,1,99.1208279998973,,,,,,,,99.10528029990382,99.1208279998973,99.1208279998973,99.1208279998973,0.0019817999564111233,106.05377100012265,chart,[-0.04814814814814815],[-0.32407407407407407],[1],[0],[0],[6.946237599942833],['submit_text'],,569892,001,2024-11-07_14h45.14.704,Word Priming,2024.1.5,None,2024-11-07 14h45.20.576522 +0530,
,l_pt_p,Laptop,old,,,,,0,16,16,0,106.06923340004869,,,,,,,,106.0541548000183,106.06923340004869,106.06923340004869,106.06923340004869,0.0017675000708550215,110.21972210006788,laptop,[-0.04814814814814815],[-0.31666666666666665],[1],[0],[0],[4.163397599942982],['submit_text'],,569892,001,2024-11-07_14h45.14.704,Word Priming,2024.1.5,None,2024-11-07 14h45.20.576522 +0530,
,ta_l_,Table,new,,,,,0,17,17,15,110.23480219999328,,,,,,,,110.22021310008131,110.23480219999328,110.23480219999328,110.23480219999328,0.0018937999848276377,113.36848299996927,table,[-0.041666666666666664],[-0.3074074074074074],[1],[0],[0],[3.1460603999439627],['submit_text'],,569892,001,2024-11-07_14h45.14.704,Word Priming,2024.1.5,None,2024-11-07 14h45.20.576522 +0530,
,bo_t_e,Bottle,new,,,,,0,18,18,18,113.38409320008941,,,,,,,,113.36885900003836,113.38409320008941,113.38409320008941,113.38409320008941,0.001914900029078126,117.88423130009323,bootle,[-0.04351851851851852],[-0.29814814814814816],[1],[0],[0],[4.513105800142512],['submit_text'],,569892,001,2024-11-07_14h45.14.704,Word Priming,2024.1.5,None,2024-11-07 14h45.20.576522 +0530,
,_o_rd,Board,old,,,,,0,19,19,10,117.89988759998232,,,,,,,,117.88462850009091,117.89988759998232,117.89988759998232,117.89988759998232,0.0019493000581860542,123.31639829999767,board,[-0.049074074074074076],[-0.3074074074074074],[1],[0],[0],[5.429457599995658],['submit_text'],,569892,001,2024-11-07_14h45.14.704,Word Priming,2024.1.5,None,2024-11-07 14h45.20.576522 +0530,
